"STUDYID","USUBJID","SUBJID","SITEID","AGE","AGEGR9","AGEGR9N","SEX","RACE","ARM","ACTARM","ITTFL","TRTSDTM","ABNSBPFL","LSTALVDT","CARPOPFL"
"CDISCPILOT01","01-701-1015","1015","701",63,">50",3,"F","WHITE","Placebo","Placebo","Y",2014-01-02,"Y",2014-07-02,NA
"CDISCPILOT01","01-701-1023","1023","701",64,">50",3,"M","WHITE","Placebo","Placebo","Y",2012-08-05,"Y",2013-02-18,"Y"
"CDISCPILOT01","01-701-1028","1028","701",71,">50",3,"M","WHITE","Xanomeline High Dose","Xanomeline High Dose","Y",2013-07-19,"Y",2014-01-14,NA
"CDISCPILOT01","01-701-1033","1033","701",74,">50",3,"M","WHITE","Xanomeline Low Dose","Xanomeline Low Dose","Y",2014-03-18,"Y",2014-09-15,NA
"CDISCPILOT01","01-701-1034","1034","701",77,">50",3,"F","WHITE","Xanomeline High Dose","Xanomeline High Dose","Y",2014-07-01,"Y",2014-12-30,NA
"CDISCPILOT01","01-701-1047","1047","701",85,">50",3,"F","WHITE","Placebo","Placebo","Y",2013-02-12,"Y",2013-07-28,"Y"
"CDISCPILOT01","01-701-1057","1057","701",59,">50",3,"F","WHITE","Screen Failure","Screen Failure","Y",NA,"N",2013-12-20,NA
"CDISCPILOT01","01-701-1097","1097","701",68,">50",3,"M","WHITE","Xanomeline Low Dose","Xanomeline Low Dose","Y",2014-01-01,"Y",2014-07-09,NA
"CDISCPILOT01","01-701-1111","1111","701",81,">50",3,"F","WHITE","Xanomeline Low Dose","Xanomeline Low Dose","Y",2012-09-07,"N",2013-02-22,NA
"CDISCPILOT01","01-701-1115","1115","701",84,">50",3,"M","WHITE","Xanomeline Low Dose","Xanomeline Low Dose","Y",2012-11-30,"Y",2013-05-20,NA
"CDISCPILOT01","01-701-1118","1118","701",52,">50",3,"M","WHITE","Placebo","Placebo","Y",2014-03-12,"Y",2014-09-09,NA
"CDISCPILOT01","01-701-1130","1130","701",84,">50",3,"M","WHITE","Placebo","Placebo","Y",2014-02-15,"Y",2014-08-16,NA
"CDISCPILOT01","01-701-1133","1133","701",81,">50",3,"F","WHITE","Xanomeline High Dose","Xanomeline High Dose","Y",2012-10-28,"Y",2013-04-29,NA
"CDISCPILOT01","01-701-1145","1145","701",57,">50",3,"F","WHITE","Screen Failure","Screen Failure","Y",NA,"N",2013-09-05,NA
"CDISCPILOT01","01-701-1146","1146","701",75,">50",3,"F","WHITE","Xanomeline High Dose","Xanomeline High Dose","Y",2013-05-20,"N",2013-06-30,NA
"CDISCPILOT01","01-701-1148","1148","701",57,">50",3,"M","WHITE","Xanomeline High Dose","Xanomeline High Dose","Y",2013-08-23,"Y",2020-12-02,NA
"CDISCPILOT01","01-701-1153","1153","701",79,">50",3,"F","WHITE","Placebo","Placebo","Y",2013-09-23,"Y",2014-04-01,NA
"CDISCPILOT01","01-701-1162","1162","701",82,">50",3,"F","WHITE","Screen Failure","Screen Failure","Y",NA,"N",2013-04-18,NA
"CDISCPILOT01","01-701-1176","1176","701",62,">50",3,"F","AMERICAN INDIAN OR ALASKA NATIVE","Screen Failure","Screen Failure","Y",NA,"N",2012-09-30,NA
"CDISCPILOT01","01-701-1180","1180","701",56,">50",3,"M","WHITE","Xanomeline High Dose","Xanomeline High Dose","Y",2013-02-12,"Y",2013-03-23,NA
"CDISCPILOT01","01-701-1181","1181","701",79,">50",3,"F","WHITE","Xanomeline High Dose","Xanomeline Low Dose","Y",2013-12-05,"Y",2014-05-23,NA
"CDISCPILOT01","01-701-1188","1188","701",71,">50",3,"M","WHITE","Xanomeline Low Dose","Xanomeline Low Dose","Y",2013-02-15,"Y",2013-08-04,NA
"CDISCPILOT01","01-701-1192","1192","701",80,">50",3,"F","WHITE","Xanomeline Low Dose","Xanomeline Low Dose","Y",2012-07-22,"Y",2020-10-06,NA
"CDISCPILOT01","01-701-1203","1203","701",81,">50",3,"F","BLACK OR AFRICAN AMERICAN","Placebo","Placebo","Y",2013-02-02,"Y",2013-08-03,NA
"CDISCPILOT01","01-701-1211","1211","701",76,">50",3,"F","WHITE","Xanomeline Low Dose","Xanomeline Low Dose","Y",2012-11-15,"Y",2013-01-14,NA
"CDISCPILOT01","01-701-1234","1234","701",69,">50",3,"M","WHITE","Placebo","Placebo","Y",2013-03-30,"Y",2013-09-22,NA
"CDISCPILOT01","01-701-1239","1239","701",56,">50",3,"M","WHITE","Xanomeline High Dose","Xanomeline High Dose","Y",2014-01-11,"Y",2014-07-11,NA
"CDISCPILOT01","01-701-1240","1240","701",57,">50",3,"F","BLACK OR AFRICAN AMERICAN","Screen Failure","Screen Failure","Y",NA,"N",2013-09-22,NA
"CDISCPILOT01","01-701-1275","1275","701",61,">50",3,"M","AMERICAN INDIAN OR ALASKA NATIVE","Xanomeline High Dose","Xanomeline High Dose","Y",2014-02-07,"Y",2014-06-14,NA
"CDISCPILOT01","01-701-1287","1287","701",56,">50",3,"F","WHITE","Xanomeline High Dose","Xanomeline High Dose","Y",2014-01-25,"Y",2014-07-26,NA
"CDISCPILOT01","01-701-1294","1294","701",67,">50",3,"M","WHITE","Xanomeline Low Dose","Xanomeline Low Dose","Y",2013-03-24,"N",2013-10-08,NA
"CDISCPILOT01","01-701-1302","1302","701",61,">50",3,"M","WHITE","Xanomeline High Dose","Xanomeline High Dose","Y",2013-08-29,"N",2014-02-13,NA
"CDISCPILOT01","01-701-1307","1307","701",80,">50",3,"F","WHITE","Screen Failure","Screen Failure","Y",NA,"N",2013-12-08,NA
"CDISCPILOT01","01-701-1317","1317","701",68,">50",3,"M","WHITE","Xanomeline Low Dose","Xanomeline Low Dose","Y",2014-05-22,"Y",2014-11-20,NA
"CDISCPILOT01","01-701-1324","1324","701",79,">50",3,"M","WHITE","Xanomeline Low Dose","Xanomeline Low Dose","Y",2012-10-02,"Y",2013-04-02,NA
"CDISCPILOT01","01-701-1341","1341","701",51,">50",3,"M","WHITE","Xanomeline Low Dose","Xanomeline Low Dose","Y",2013-01-05,"Y",2013-02-07,NA
"CDISCPILOT01","01-701-1345","1345","701",63,">50",3,"F","WHITE","Placebo","Placebo","Y",2013-10-08,"N",2014-03-18,NA
"CDISCPILOT01","01-701-1356","1356","701",54,">50",3,"F","WHITE","Screen Failure","Screen Failure","Y",NA,"N",2014-04-01,NA
"CDISCPILOT01","01-701-1360","1360","701",67,">50",3,"M","WHITE","Xanomeline High Dose","Xanomeline Low Dose","Y",2013-07-31,"Y",2014-02-11,NA
"CDISCPILOT01","01-701-1363","1363","701",81,">50",3,"F","BLACK OR AFRICAN AMERICAN","Placebo","Placebo","Y",2013-05-30,"Y",2013-11-27,NA
"CDISCPILOT01","01-701-1369","1369","701",74,">50",3,"M","WHITE","Screen Failure","Screen Failure","Y",NA,"N",2013-09-18,NA
"CDISCPILOT01","01-701-1383","1383","701",72,">50",3,"F","WHITE","Xanomeline High Dose","Xanomeline High Dose","Y",2013-02-04,"Y",2013-08-06,NA
"CDISCPILOT01","01-701-1386","1386","701",71,">50",3,"M","WHITE","Screen Failure","Screen Failure","Y",NA,"N",2013-12-28,NA
"CDISCPILOT01","01-701-1387","1387","701",87,">50",3,"F","WHITE","Placebo","Placebo","Y",2014-03-12,"Y",2014-08-27,NA
"CDISCPILOT01","01-701-1392","1392","701",78,">50",3,"M","WHITE","Placebo","Placebo","Y",2012-10-28,"Y",2013-04-28,NA
"CDISCPILOT01","01-701-1411","1411","701",76,">50",3,"M","BLACK OR AFRICAN AMERICAN","Screen Failure","Screen Failure","Y",NA,"N",2012-11-14,NA
"CDISCPILOT01","01-701-1415","1415","701",85,">50",3,"M","WHITE","Placebo","Placebo","Y",2013-09-23,"Y",2014-03-24,NA
"CDISCPILOT01","01-701-1429","1429","701",84,">50",3,"F","WHITE","Xanomeline Low Dose","Xanomeline Low Dose","Y",2013-03-19,"Y",2013-04-30,NA
"CDISCPILOT01","01-701-1440","1440","701",70,">50",3,"M","WHITE","Placebo","Placebo","Y",2013-08-08,"Y",2014-02-05,NA
"CDISCPILOT01","01-701-1442","1442","701",57,">50",3,"F","BLACK OR AFRICAN AMERICAN","Xanomeline Low Dose","Xanomeline Low Dose","Y",2013-10-26,"Y",2014-04-26,NA
"CDISCPILOT01","01-701-1444","1444","701",63,">50",3,"M","WHITE","Xanomeline High Dose","Xanomeline High Dose","Y",2013-01-05,"Y",2013-06-20,NA
"CDISCPILOT01","01-702-1082","1082","702",84,">50",3,"F","WHITE","Xanomeline Low Dose","Xanomeline Low Dose","Y",2013-07-26,"Y",2013-11-17,NA
"CDISCPILOT01","01-703-1042","1042","703",64,">50",3,"M","WHITE","Placebo","Placebo","Y",2013-03-02,"N",2013-08-31,NA
"CDISCPILOT01","01-703-1076","1076","703",69,">50",3,"M","WHITE","Xanomeline High Dose","Xanomeline High Dose","Y",2013-10-25,"Y",2013-12-24,NA
"CDISCPILOT01","01-703-1086","1086","703",71,">50",3,"M","WHITE","Xanomeline Low Dose","Xanomeline Low Dose","Y",2012-09-02,"N",2013-03-26,NA
"CDISCPILOT01","01-703-1096","1096","703",81,">50",3,"F","WHITE","Placebo","Placebo","Y",2013-01-25,"Y",2013-03-29,NA
"CDISCPILOT01","01-703-1100","1100","703",84,">50",3,"F","WHITE","Placebo","Placebo","Y",2013-03-13,"Y",2013-09-14,NA
"CDISCPILOT01","01-703-1119","1119","703",81,">50",3,"F","WHITE","Xanomeline Low Dose","Xanomeline Low Dose","Y",2013-02-20,"Y",2013-08-24,NA
"CDISCPILOT01","01-703-1175","1175","703",75,">50",3,"M","WHITE","Placebo","Placebo","Y",2013-12-20,"Y",2013-12-31,"Y"
"CDISCPILOT01","01-703-1182","1182","703",84,">50",3,"M","WHITE","Xanomeline Low Dose","Xanomeline Low Dose","Y",2013-10-17,"Y",2013-12-12,NA
"CDISCPILOT01","01-703-1197","1197","703",76,">50",3,"F","BLACK OR AFRICAN AMERICAN","Xanomeline Low Dose","Xanomeline Low Dose","Y",2013-06-16,"Y",2013-07-22,NA
"CDISCPILOT01","01-703-1210","1210","703",72,">50",3,"F","WHITE","Placebo","Placebo","Y",2013-03-16,"Y",2013-09-06,NA
"CDISCPILOT01","01-703-1258","1258","703",78,">50",3,"F","WHITE","Xanomeline High Dose","Xanomeline High Dose","Y",2012-07-20,"Y",2013-01-21,NA
"CDISCPILOT01","01-703-1279","1279","703",72,">50",3,"F","WHITE","Xanomeline Low Dose","Xanomeline Low Dose","Y",2013-05-13,"Y",2013-06-22,NA
"CDISCPILOT01","01-703-1295","1295","703",88,">50",3,"F","WHITE","Xanomeline High Dose","Xanomeline High Dose","Y",2013-11-21,"Y",2014-05-19,NA
"CDISCPILOT01","01-703-1299","1299","703",81,">50",3,"F","WHITE","Placebo","Placebo","Y",2012-09-12,"Y",2013-03-13,"Y"
"CDISCPILOT01","01-703-1335","1335","703",67,">50",3,"F","BLACK OR AFRICAN AMERICAN","Xanomeline High Dose","Xanomeline High Dose","Y",2014-03-17,"Y",2014-05-24,"Y"
"CDISCPILOT01","01-703-1379","1379","703",81,">50",3,"F","BLACK OR AFRICAN AMERICAN","Xanomeline Low Dose","Xanomeline Low Dose","Y",2013-09-22,"Y",2014-03-21,NA
"CDISCPILOT01","01-703-1396","1396","703",84,">50",3,"M","ASIAN","Screen Failure","Screen Failure","Y",NA,"N",2014-02-09,NA
"CDISCPILOT01","01-703-1403","1403","703",67,">50",3,"M","WHITE","Xanomeline High Dose","Xanomeline Low Dose","Y",2012-12-12,"N",2012-12-19,NA
"CDISCPILOT01","01-703-1439","1439","703",76,">50",3,"F","WHITE","Xanomeline High Dose","Xanomeline High Dose","Y",2014-03-12,"Y",2014-09-11,NA
"CDISCPILOT01","01-704-1008","1008","704",76,">50",3,"F","WHITE","Xanomeline High Dose","Xanomeline High Dose","Y",2013-01-13,"Y",2013-02-25,"Y"
"CDISCPILOT01","01-704-1009","1009","704",83,">50",3,"M","WHITE","Xanomeline Low Dose","Xanomeline Low Dose","Y",2013-08-27,"Y",2013-10-02,NA
"CDISCPILOT01","01-704-1010","1010","704",80,">50",3,"M","WHITE","Placebo","Placebo","Y",2014-02-21,"Y",2014-07-09,NA
"CDISCPILOT01","01-704-1017","1017","704",77,">50",3,"M","WHITE","Xanomeline High Dose","Xanomeline High Dose","Y",2013-10-06,"Y",2013-11-24,"Y"
"CDISCPILOT01","01-704-1025","1025","704",81,">50",3,"F","WHITE","Xanomeline Low Dose","Xanomeline Low Dose","Y",2013-09-27,"Y",2013-11-29,"Y"
"CDISCPILOT01","01-704-1065","1065","704",75,">50",3,"M","WHITE","Xanomeline High Dose","Xanomeline High Dose","Y",2013-10-24,"Y",2013-12-24,"Y"
"CDISCPILOT01","01-704-1074","1074","704",80,">50",3,"F","WHITE","Xanomeline High Dose","Xanomeline High Dose","Y",2014-01-22,"Y",2014-03-31,NA
"CDISCPILOT01","01-704-1093","1093","704",79,">50",3,"M","WHITE","Xanomeline High Dose","Xanomeline High Dose","Y",2013-03-15,"Y",2013-12-25,NA
"CDISCPILOT01","01-704-1114","1114","704",77,">50",3,"M","WHITE","Xanomeline Low Dose","Xanomeline Low Dose","Y",2013-01-23,"Y",2013-07-08,NA
"CDISCPILOT01","01-704-1120","1120","704",71,">50",3,"F","WHITE","Xanomeline Low Dose","Xanomeline Low Dose","Y",2013-12-02,"Y",2014-02-03,NA
"CDISCPILOT01","01-704-1127","1127","704",84,">50",3,"F","WHITE","Placebo","Placebo","Y",2013-10-02,"N",2014-03-31,NA
"CDISCPILOT01","01-704-1135","1135","704",74,">50",3,"F","WHITE","Xanomeline Low Dose","Xanomeline Low Dose","Y",2013-10-31,"Y",2014-05-16,NA
"CDISCPILOT01","01-704-1164","1164","704",67,">50",3,"F","WHITE","Placebo","Placebo","Y",2012-09-19,"Y",2013-04-04,NA
"CDISCPILOT01","01-704-1218","1218","704",81,">50",3,"F","WHITE","Xanomeline Low Dose","Xanomeline Low Dose","Y",2012-11-19,"Y",2013-05-27,NA
"CDISCPILOT01","01-704-1233","1233","704",87,">50",3,"F","WHITE","Placebo","Placebo","Y",2013-03-21,"Y",2013-07-14,NA
"CDISCPILOT01","01-704-1241","1241","704",86,">50",3,"M","WHITE","Xanomeline High Dose","Xanomeline High Dose","Y",2013-08-25,"Y",2013-10-31,NA
"CDISCPILOT01","01-704-1260","1260","704",71,">50",3,"F","WHITE","Placebo","Placebo","Y",2012-08-30,"Y",2013-01-18,NA
"CDISCPILOT01","01-704-1266","1266","704",82,">50",3,"M","WHITE","Xanomeline High Dose","Xanomeline High Dose","Y",2013-10-13,"N",2013-12-06,"Y"
"CDISCPILOT01","01-704-1323","1323","704",68,">50",3,"F","WHITE","Xanomeline Low Dose","Xanomeline Low Dose","Y",2013-07-08,"Y",2013-08-08,NA
"CDISCPILOT01","01-704-1325","1325","704",81,">50",3,"M","WHITE","Xanomeline Low Dose","Xanomeline Low Dose","Y",2014-04-23,"Y",2014-08-06,NA
"CDISCPILOT01","01-704-1332","1332","704",80,">50",3,"M","WHITE","Xanomeline High Dose","Xanomeline High Dose","Y",2013-12-09,"Y",2014-02-16,NA
"CDISCPILOT01","01-704-1351","1351","704",70,">50",3,"M","WHITE","Placebo","Placebo","Y",2013-10-12,"Y",2014-04-18,NA
"CDISCPILOT01","01-704-1388","1388","704",81,">50",3,"M","WHITE","Placebo","Placebo","Y",2012-12-07,"Y",2013-06-19,NA
"CDISCPILOT01","01-704-1435","1435","704",74,">50",3,"M","WHITE","Placebo","Placebo","Y",2012-11-17,"Y",2013-01-12,NA
"CDISCPILOT01","01-704-1445","1445","704",75,">50",3,"M","WHITE","Placebo","Placebo","Y",2014-05-11,"Y",2014-11-01,NA
"CDISCPILOT01","01-705-1011","1011","705",75,">50",3,"F","WHITE","Screen Failure","Screen Failure","Y",NA,"N",2013-09-01,NA
"CDISCPILOT01","01-705-1018","1018","705",69,">50",3,"F","WHITE","Placebo","Placebo","Y",2013-07-05,"Y",2013-07-12,NA
"CDISCPILOT01","01-705-1031","1031","705",56,">50",3,"F","WHITE","Xanomeline Low Dose","Xanomeline Low Dose","Y",2013-11-27,"Y",2014-05-11,NA
"CDISCPILOT01","01-705-1058","1058","705",89,">50",3,"M","WHITE","Screen Failure","Screen Failure","Y",NA,"N",2013-12-02,NA
"CDISCPILOT01","01-705-1059","1059","705",66,">50",3,"F","WHITE","Placebo","Placebo","Y",2013-08-05,"Y",2014-02-06,NA
"CDISCPILOT01","01-705-1112","1112","705",78,">50",3,"M","WHITE","Screen Failure","Screen Failure","Y",NA,"N",2014-02-23,NA
"CDISCPILOT01","01-705-1186","1186","705",84,">50",3,"F","WHITE","Placebo","Placebo","Y",2014-01-08,"Y",2014-02-07,NA
"CDISCPILOT01","01-705-1199","1199","705",87,">50",3,"M","WHITE","Xanomeline Low Dose","Xanomeline Low Dose","Y",2013-09-16,"Y",2013-09-29,NA
"CDISCPILOT01","01-705-1243","1243","705",70,">50",3,"F","WHITE","Screen Failure","Screen Failure","Y",NA,"N",2013-02-26,NA
"CDISCPILOT01","01-705-1280","1280","705",56,">50",3,"F","WHITE","Xanomeline High Dose","Xanomeline High Dose","Y",2014-01-17,"Y",2014-07-25,NA
"CDISCPILOT01","01-705-1281","1281","705",73,">50",3,"F","BLACK OR AFRICAN AMERICAN","Xanomeline High Dose","Xanomeline High Dose","Y",2013-11-28,"Y",2014-03-17,NA
"CDISCPILOT01","01-705-1282","1282","705",70,">50",3,"F","BLACK OR AFRICAN AMERICAN","Placebo","Placebo","Y",2012-12-26,"Y",2013-06-24,NA
"CDISCPILOT01","01-705-1292","1292","705",60,">50",3,"F","BLACK OR AFRICAN AMERICAN","Xanomeline Low Dose","Xanomeline Low Dose","Y",2013-10-14,"Y",2014-05-14,NA
"CDISCPILOT01","01-705-1303","1303","705",72,">50",3,"M","WHITE","Xanomeline High Dose","Xanomeline High Dose","Y",2013-12-16,"Y",2014-06-02,NA
"CDISCPILOT01","01-705-1310","1310","705",74,">50",3,"F","WHITE","Xanomeline High Dose","Xanomeline High Dose","Y",2013-11-02,"Y",2014-01-23,NA
"CDISCPILOT01","01-705-1349","1349","705",86,">50",3,"F","WHITE","Placebo","Placebo","Y",2013-03-10,"Y",2013-09-08,"Y"
"CDISCPILOT01","01-705-1377","1377","705",63,">50",3,"F","BLACK OR AFRICAN AMERICAN","Xanomeline High Dose","Xanomeline High Dose","Y",2014-01-04,"N",2014-03-07,NA
"CDISCPILOT01","01-705-1382","1382","705",82,">50",3,"M","WHITE","Xanomeline High Dose","Xanomeline Low Dose","Y",2013-05-13,"Y",2013-05-13,NA
"CDISCPILOT01","01-705-1393","1393","705",84,">50",3,"F","WHITE","Xanomeline Low Dose","Xanomeline Low Dose","Y",2012-09-07,"Y",2013-02-20,NA
"CDISCPILOT01","01-705-1421","1421","705",87,">50",3,"M","WHITE","Screen Failure","Screen Failure","Y",NA,"N",2013-01-14,NA
"CDISCPILOT01","01-705-1431","1431","705",68,">50",3,"F","WHITE","Xanomeline Low Dose","Xanomeline Low Dose","Y",2013-06-23,"Y",2013-12-19,NA
"CDISCPILOT01","01-706-1041","1041","706",64,">50",3,"F","BLACK OR AFRICAN AMERICAN","Placebo","Placebo","Y",2013-12-31,"Y",2020-12-05,NA
"CDISCPILOT01","01-706-1049","1049","706",60,">50",3,"F","WHITE","Xanomeline High Dose","Xanomeline High Dose","Y",2013-05-14,"Y",2013-11-26,NA
"CDISCPILOT01","01-706-1384","1384","706",74,">50",3,"F","WHITE","Xanomeline Low Dose","Xanomeline Low Dose","Y",2012-09-15,"Y",2013-06-22,NA
"CDISCPILOT01","01-707-1037","1037","707",72,">50",3,"F","WHITE","Xanomeline Low Dose","Xanomeline Low Dose","Y",2013-12-20,"Y",2014-01-08,NA
"CDISCPILOT01","01-707-1206","1206","707",65,">50",3,"M","WHITE","Placebo","Placebo","Y",2013-10-28,"Y",2014-04-27,"Y"
"CDISCPILOT01","01-707-1276","1276","707",72,">50",3,"F","WHITE","Screen Failure","Screen Failure","Y",NA,"N",2012-10-12,NA
"CDISCPILOT01","01-707-1430","1430","707",81,">50",3,"F","WHITE","Screen Failure","Screen Failure","Y",NA,"N",2014-02-14,NA
"CDISCPILOT01","01-707-1434","1434","707",76,">50",3,"F","WHITE","Screen Failure","Screen Failure","Y",NA,"N",2013-07-25,NA
"CDISCPILOT01","01-708-1013","1013","708",80,">50",3,"M","WHITE","Screen Failure","Screen Failure","Y",NA,"N",2012-10-13,NA
"CDISCPILOT01","01-708-1019","1019","708",68,">50",3,"M","WHITE","Xanomeline Low Dose","Xanomeline Low Dose","Y",2013-12-20,"N",2014-01-23,NA
"CDISCPILOT01","01-708-1032","1032","708",62,">50",3,"M","WHITE","Xanomeline Low Dose","Xanomeline Low Dose","Y",2013-02-09,"Y",2013-03-09,NA
"CDISCPILOT01","01-708-1054","1054","708",73,">50",3,"F","BLACK OR AFRICAN AMERICAN","Screen Failure","Screen Failure","Y",NA,"N",2014-02-14,NA
"CDISCPILOT01","01-708-1067","1067","708",88,">50",3,"M","WHITE","Screen Failure","Screen Failure","Y",NA,"N",2013-02-07,NA
"CDISCPILOT01","01-708-1084","1084","708",73,">50",3,"F","WHITE","Xanomeline Low Dose","Xanomeline Low Dose","Y",2013-05-09,"Y",2013-11-11,"Y"
"CDISCPILOT01","01-708-1087","1087","708",74,">50",3,"F","WHITE","Placebo","Placebo","Y",2012-10-22,"Y",2013-04-28,NA
"CDISCPILOT01","01-708-1104","1104","708",78,">50",3,"F","ASIAN","Screen Failure","Screen Failure","Y",NA,"N",2014-01-23,NA
"CDISCPILOT01","01-708-1158","1158","708",81,">50",3,"F","WHITE","Placebo","Placebo","Y",2014-02-08,"Y",2014-03-22,NA
"CDISCPILOT01","01-708-1171","1171","708",77,">50",3,"F","WHITE","Placebo","Placebo","Y",2012-12-06,"Y",2013-06-04,NA
"CDISCPILOT01","01-708-1178","1178","708",77,">50",3,"F","BLACK OR AFRICAN AMERICAN","Xanomeline High Dose","Xanomeline High Dose","Y",2013-12-29,"Y",2014-04-06,"Y"
"CDISCPILOT01","01-708-1184","1184","708",70,">50",3,"F","WHITE","Screen Failure","Screen Failure","Y",NA,"N",2013-01-14,NA
"CDISCPILOT01","01-708-1213","1213","708",76,">50",3,"F","WHITE","Xanomeline High Dose","Xanomeline Low Dose","Y",2013-02-09,"Y",2013-02-26,"Y"
"CDISCPILOT01","01-708-1216","1216","708",78,">50",3,"M","WHITE","Xanomeline High Dose","Xanomeline High Dose","Y",2012-10-24,"Y",2012-12-06,NA
"CDISCPILOT01","01-708-1236","1236","708",86,">50",3,"F","WHITE","Xanomeline High Dose","Xanomeline Low Dose","Y",2013-09-21,"Y",2013-09-26,NA
"CDISCPILOT01","01-708-1242","1242","708",80,">50",3,"M","WHITE","Screen Failure","Screen Failure","Y",NA,"N",2012-08-13,NA
"CDISCPILOT01","01-708-1253","1253","708",61,">50",3,"M","WHITE","Placebo","Placebo","Y",2013-05-07,"Y",2013-11-05,NA
"CDISCPILOT01","01-708-1272","1272","708",82,">50",3,"M","WHITE","Xanomeline Low Dose","Xanomeline Low Dose","Y",2013-02-06,"Y",2013-04-04,"Y"
"CDISCPILOT01","01-708-1286","1286","708",80,">50",3,"F","BLACK OR AFRICAN AMERICAN","Placebo","Placebo","Y",2013-09-10,"Y",2014-03-08,"Y"
"CDISCPILOT01","01-708-1296","1296","708",57,">50",3,"M","BLACK OR AFRICAN AMERICAN","Placebo","Placebo","Y",2013-06-14,"Y",2013-12-12,"Y"
"CDISCPILOT01","01-708-1297","1297","708",61,">50",3,"M","WHITE","Xanomeline Low Dose","Xanomeline Low Dose","Y",2013-01-25,"Y",2013-05-08,"Y"
"CDISCPILOT01","01-708-1316","1316","708",74,">50",3,"F","WHITE","Placebo","Placebo","Y",2013-08-23,"Y",2014-03-01,NA
"CDISCPILOT01","01-708-1336","1336","708",73,">50",3,"M","WHITE","Xanomeline High Dose","Xanomeline High Dose","Y",2012-12-07,"Y",2013-06-05,NA
"CDISCPILOT01","01-708-1342","1342","708",59,">50",3,"F","WHITE","Placebo","Placebo","Y",2012-12-29,"Y",2013-06-28,NA
"CDISCPILOT01","01-708-1347","1347","708",61,">50",3,"F","WHITE","Xanomeline High Dose","Xanomeline High Dose","Y",2013-04-20,"Y",2013-06-18,NA
"CDISCPILOT01","01-708-1348","1348","708",79,">50",3,"F","WHITE","Xanomeline Low Dose","Xanomeline Low Dose","Y",2013-08-05,"Y",2014-02-13,"Y"
"CDISCPILOT01","01-708-1352","1352","708",87,">50",3,"F","WHITE","Screen Failure","Screen Failure","Y",NA,"N",2013-09-16,NA
"CDISCPILOT01","01-708-1353","1353","708",87,">50",3,"F","BLACK OR AFRICAN AMERICAN","Xanomeline Low Dose","Xanomeline Low Dose","Y",2013-07-04,"Y",2013-09-10,NA
"CDISCPILOT01","01-708-1372","1372","708",84,">50",3,"M","WHITE","Xanomeline High Dose","Xanomeline Low Dose","Y",2013-04-12,"Y",2013-05-10,"Y"
"CDISCPILOT01","01-708-1378","1378","708",67,">50",3,"M","BLACK OR AFRICAN AMERICAN","Placebo","Placebo","Y",2013-09-03,"Y",2014-01-28,NA
"CDISCPILOT01","01-708-1406","1406","708",71,">50",3,"F","WHITE","Xanomeline High Dose","Xanomeline High Dose","Y",2013-12-26,"Y",2014-07-02,NA
"CDISCPILOT01","01-708-1428","1428","708",84,">50",3,"F","WHITE","Xanomeline Low Dose","Xanomeline Low Dose","Y",2013-11-09,"Y",2014-01-31,NA
"CDISCPILOT01","01-709-1001","1001","709",76,">50",3,"F","WHITE","Placebo","Placebo","Y",2013-10-08,"Y",2014-04-08,NA
"CDISCPILOT01","01-709-1007","1007","709",54,">50",3,"F","WHITE","Xanomeline Low Dose","Xanomeline Low Dose","Y",2012-07-31,"N",2012-09-01,NA
"CDISCPILOT01","01-709-1020","1020","709",72,">50",3,"F","WHITE","Xanomeline Low Dose","Xanomeline Low Dose","Y",2012-12-01,"Y",2013-06-01,NA
"CDISCPILOT01","01-709-1029","1029","709",82,">50",3,"M","WHITE","Xanomeline High Dose","Xanomeline High Dose","Y",2012-12-25,"Y",2013-06-26,"Y"
"CDISCPILOT01","01-709-1081","1081","709",86,">50",3,"F","WHITE","Xanomeline Low Dose","Xanomeline Low Dose","Y",2014-01-18,"Y",2014-05-10,NA
"CDISCPILOT01","01-709-1088","1088","709",69,">50",3,"M","WHITE","Placebo","Placebo","Y",2014-04-12,"Y",2014-10-09,NA
"CDISCPILOT01","01-709-1099","1099","709",79,">50",3,"F","WHITE","Xanomeline High Dose","Xanomeline High Dose","Y",2013-10-25,"Y",2014-04-25,NA
"CDISCPILOT01","01-709-1102","1102","709",71,">50",3,"F","WHITE","Xanomeline Low Dose","Xanomeline Low Dose","Y",2013-01-15,"Y",2013-03-31,NA
"CDISCPILOT01","01-709-1168","1168","709",72,">50",3,"F","WHITE","Xanomeline High Dose","Xanomeline High Dose","Y",2013-08-02,"Y",2013-09-27,NA
"CDISCPILOT01","01-709-1217","1217","709",77,">50",3,"M","WHITE","Xanomeline Low Dose","Xanomeline Low Dose","Y",2013-03-04,"Y",2013-06-25,NA
"CDISCPILOT01","01-709-1224","1224","709",84,">50",3,"M","WHITE","Screen Failure","Screen Failure","Y",NA,"N",2013-11-18,NA
"CDISCPILOT01","01-709-1237","1237","709",88,">50",3,"F","WHITE","Screen Failure","Screen Failure","Y",NA,"N",2014-01-17,NA
"CDISCPILOT01","01-709-1238","1238","709",69,">50",3,"M","WHITE","Xanomeline High Dose","Xanomeline High Dose","Y",2013-05-15,"Y",2013-08-07,NA
"CDISCPILOT01","01-709-1259","1259","709",82,">50",3,"M","WHITE","Placebo","Placebo","Y",2013-01-26,"Y",2013-06-13,NA
"CDISCPILOT01","01-709-1285","1285","709",87,">50",3,"M","WHITE","Xanomeline Low Dose","Xanomeline Low Dose","Y",2013-03-24,"Y",2013-05-31,"Y"
"CDISCPILOT01","01-709-1301","1301","709",62,">50",3,"F","WHITE","Placebo","Placebo","Y",2013-07-19,"Y",2014-01-17,NA
"CDISCPILOT01","01-709-1306","1306","709",60,">50",3,"F","WHITE","Placebo","Placebo","Y",2014-02-03,"Y",2014-06-25,NA
"CDISCPILOT01","01-709-1309","1309","709",65,">50",3,"M","WHITE","Xanomeline High Dose","Xanomeline High Dose","Y",2013-06-19,"N",2013-12-19,NA
"CDISCPILOT01","01-709-1312","1312","709",68,">50",3,"F","WHITE","Placebo","Placebo","Y",2014-04-20,"Y",2014-10-19,NA
"CDISCPILOT01","01-709-1326","1326","709",75,">50",3,"F","WHITE","Xanomeline Low Dose","Xanomeline Low Dose","Y",2013-04-05,"Y",2013-10-02,NA
"CDISCPILOT01","01-709-1329","1329","709",70,">50",3,"M","WHITE","Xanomeline High Dose","Xanomeline Low Dose","Y",2013-08-15,"Y",2013-08-29,NA
"CDISCPILOT01","01-709-1339","1339","709",81,">50",3,"M","WHITE","Placebo","Placebo","Y",2012-12-23,"Y",2020-11-11,NA
"CDISCPILOT01","01-709-1424","1424","709",77,">50",3,"M","WHITE","Xanomeline High Dose","Xanomeline Low Dose","Y",2013-03-03,"N",2013-03-17,NA
"CDISCPILOT01","01-710-1002","1002","710",88,">50",3,"M","WHITE","Xanomeline Low Dose","Xanomeline Low Dose","Y",2014-01-14,"Y",2014-01-18,NA
"CDISCPILOT01","01-710-1006","1006","710",77,">50",3,"M","WHITE","Xanomeline High Dose","Xanomeline High Dose","Y",2013-02-10,"Y",2013-08-10,"Y"
"CDISCPILOT01","01-710-1021","1021","710",79,">50",3,"M","BLACK OR AFRICAN AMERICAN","Xanomeline High Dose","Xanomeline High Dose","Y",2013-09-27,"Y",2013-11-12,NA
"CDISCPILOT01","01-710-1027","1027","710",83,">50",3,"M","WHITE","Placebo","Placebo","Y",2014-02-28,"Y",2014-08-29,NA
"CDISCPILOT01","01-710-1045","1045","710",83,">50",3,"F","WHITE","Xanomeline Low Dose","Xanomeline Low Dose","Y",2013-06-03,"Y",2013-08-17,NA
"CDISCPILOT01","01-710-1053","1053","710",84,">50",3,"F","WHITE","Xanomeline Low Dose","Xanomeline Low Dose","Y",2012-12-26,"Y",2013-02-26,NA
"CDISCPILOT01","01-710-1060","1060","710",82,">50",3,"M","WHITE","Placebo","Placebo","Y",2013-01-01,"Y",2013-07-05,NA
"CDISCPILOT01","01-710-1070","1070","710",85,">50",3,"F","WHITE","Xanomeline High Dose","Xanomeline High Dose","Y",2012-09-08,"Y",2013-02-23,"Y"
"CDISCPILOT01","01-710-1077","1077","710",76,">50",3,"F","WHITE","Placebo","Placebo","Y",2013-11-17,"Y",2014-05-18,NA
"CDISCPILOT01","01-710-1078","1078","710",81,">50",3,"F","WHITE","Placebo","Placebo","Y",2013-09-17,"Y",2014-03-23,NA
"CDISCPILOT01","01-710-1083","1083","710",89,">50",3,"F","WHITE","Placebo","Placebo","Y",2013-07-22,"Y",2013-08-02,"Y"
"CDISCPILOT01","01-710-1129","1129","710",69,">50",3,"F","BLACK OR AFRICAN AMERICAN","Screen Failure","Screen Failure","Y",NA,"N",2013-03-05,NA
"CDISCPILOT01","01-710-1137","1137","710",79,">50",3,"F","BLACK OR AFRICAN AMERICAN","Xanomeline High Dose","Xanomeline High Dose","Y",2013-10-11,"Y",2013-11-13,NA
"CDISCPILOT01","01-710-1142","1142","710",76,">50",3,"F","WHITE","Xanomeline High Dose","Xanomeline High Dose","Y",2012-10-02,"Y",2012-10-23,"Y"
"CDISCPILOT01","01-710-1149","1149","710",79,">50",3,"F","WHITE","Screen Failure","Screen Failure","Y",NA,"N",2013-11-16,NA
"CDISCPILOT01","01-710-1154","1154","710",84,">50",3,"M","WHITE","Xanomeline Low Dose","Xanomeline Low Dose","Y",2014-03-29,"N",2014-05-09,NA
"CDISCPILOT01","01-710-1166","1166","710",81,">50",3,"F","WHITE","Xanomeline Low Dose","Xanomeline Low Dose","Y",2012-11-30,"Y",2013-03-30,NA
"CDISCPILOT01","01-710-1183","1183","710",80,">50",3,"F","WHITE","Placebo","Placebo","Y",2013-11-16,"Y",2014-05-17,"Y"
"CDISCPILOT01","01-710-1187","1187","710",78,">50",3,"F","WHITE","Xanomeline High Dose","Xanomeline High Dose","Y",2012-11-10,"Y",2013-05-12,NA
"CDISCPILOT01","01-710-1235","1235","710",56,">50",3,"F","WHITE","Xanomeline Low Dose","Xanomeline Low Dose","Y",2012-09-26,"Y",2013-03-27,NA
"CDISCPILOT01","01-710-1249","1249","710",79,">50",3,"M","WHITE","Xanomeline High Dose","Xanomeline High Dose","Y",2013-12-28,"Y",2014-06-28,NA
"CDISCPILOT01","01-710-1257","1257","710",85,">50",3,"F","WHITE","Screen Failure","Screen Failure","Y",NA,"N",2013-11-29,NA
"CDISCPILOT01","01-710-1264","1264","710",78,">50",3,"M","WHITE","Placebo","Placebo","Y",2013-06-13,"Y",2013-10-12,NA
"CDISCPILOT01","01-710-1270","1270","710",83,">50",3,"F","WHITE","Xanomeline Low Dose","Xanomeline Low Dose","Y",2014-02-12,"Y",2014-03-01,NA
"CDISCPILOT01","01-710-1271","1271","710",86,">50",3,"F","WHITE","Placebo","Placebo","Y",2012-09-27,"Y",2012-12-02,"Y"
"CDISCPILOT01","01-710-1278","1278","710",81,">50",3,"M","WHITE","Xanomeline High Dose","Xanomeline High Dose","Y",2012-12-24,"Y",2013-03-07,NA
"CDISCPILOT01","01-710-1300","1300","710",78,">50",3,"F","WHITE","Xanomeline Low Dose","Xanomeline Low Dose","Y",2012-12-15,"Y",2013-02-19,NA
"CDISCPILOT01","01-710-1314","1314","710",78,">50",3,"F","WHITE","Placebo","Placebo","Y",2013-04-24,"Y",2013-05-25,NA
"CDISCPILOT01","01-710-1315","1315","710",83,">50",3,"F","WHITE","Placebo","Placebo","Y",2013-02-27,"Y",2013-07-16,NA
"CDISCPILOT01","01-710-1337","1337","710",73,">50",3,"M","WHITE","Screen Failure","Screen Failure","Y",NA,"N",2013-12-30,NA
"CDISCPILOT01","01-710-1354","1354","710",73,">50",3,"M","WHITE","Xanomeline High Dose","Xanomeline High Dose","Y",2012-11-11,"Y",2013-05-01,NA
"CDISCPILOT01","01-710-1358","1358","710",82,">50",3,"M","WHITE","Xanomeline Low Dose","Xanomeline Low Dose","Y",2012-09-17,"Y",2013-03-12,NA
"CDISCPILOT01","01-710-1368","1368","710",88,">50",3,"F","WHITE","Placebo","Placebo","Y",2013-10-23,"Y",2014-04-24,NA
"CDISCPILOT01","01-710-1376","1376","710",89,">50",3,"F","WHITE","Screen Failure","Screen Failure","Y",NA,"N",2014-04-21,NA
"CDISCPILOT01","01-710-1380","1380","710",80,">50",3,"F","WHITE","Screen Failure","Screen Failure","Y",NA,"N",2013-06-02,NA
"CDISCPILOT01","01-710-1385","1385","710",77,">50",3,"M","WHITE","Xanomeline Low Dose","Xanomeline Low Dose","Y",2012-10-29,"Y",2013-02-18,"Y"
"CDISCPILOT01","01-710-1408","1408","710",80,">50",3,"M","WHITE","Xanomeline High Dose","Xanomeline High Dose","Y",2013-01-05,"Y",2013-07-12,NA
"CDISCPILOT01","01-710-1443","1443","710",88,">50",3,"F","WHITE","Screen Failure","Screen Failure","Y",NA,"N",2013-12-13,NA
"CDISCPILOT01","01-711-1012","1012","711",67,">50",3,"F","WHITE","Xanomeline High Dose","Xanomeline High Dose","Y",2013-04-03,"Y",2013-09-18,NA
"CDISCPILOT01","01-711-1022","1022","711",86,">50",3,"F","WHITE","Screen Failure","Screen Failure","Y",NA,"N",2014-03-17,NA
"CDISCPILOT01","01-711-1036","1036","711",70,">50",3,"M","BLACK OR AFRICAN AMERICAN","Placebo","Placebo","Y",2012-07-29,"Y",2013-02-10,NA
"CDISCPILOT01","01-711-1143","1143","711",76,">50",3,"F","WHITE","Xanomeline Low Dose","Xanomeline Low Dose","Y",2013-04-03,"Y",2020-07-10,"Y"
"CDISCPILOT01","01-711-1163","1163","711",74,">50",3,"F","BLACK OR AFRICAN AMERICAN","Screen Failure","Screen Failure","Y",NA,"N",2012-11-08,NA
"CDISCPILOT01","01-711-1173","1173","711",62,">50",3,"M","WHITE","Screen Failure","Screen Failure","Y",NA,"N",2012-10-04,NA
"CDISCPILOT01","01-711-1226","1226","711",74,">50",3,"F","WHITE","Screen Failure","Screen Failure","Y",NA,"N",2013-10-24,NA
"CDISCPILOT01","01-711-1251","1251","711",82,">50",3,"M","WHITE","Screen Failure","Screen Failure","Y",NA,"N",2014-02-28,NA
"CDISCPILOT01","01-711-1283","1283","711",75,">50",3,"F","BLACK OR AFRICAN AMERICAN","Screen Failure","Screen Failure","Y",NA,"N",2014-03-27,NA
"CDISCPILOT01","01-711-1284","1284","711",77,">50",3,"F","WHITE","Screen Failure","Screen Failure","Y",NA,"N",2013-08-05,NA
"CDISCPILOT01","01-711-1290","1290","711",61,">50",3,"F","WHITE","Screen Failure","Screen Failure","Y",NA,"N",2013-12-20,NA
"CDISCPILOT01","01-711-1433","1433","711",84,">50",3,"F","WHITE","Xanomeline High Dose","Xanomeline Low Dose","Y",2013-01-27,"Y",2013-02-06,NA
"CDISCPILOT01","01-713-1043","1043","713",78,">50",3,"F","WHITE","Xanomeline Low Dose","Xanomeline Low Dose","Y",2013-09-15,"Y",2014-03-24,NA
"CDISCPILOT01","01-713-1073","1073","713",74,">50",3,"F","BLACK OR AFRICAN AMERICAN","Xanomeline Low Dose","Xanomeline Low Dose","Y",2014-03-30,"Y",2014-10-05,NA
"CDISCPILOT01","01-713-1106","1106","713",74,">50",3,"M","WHITE","Xanomeline High Dose","Xanomeline High Dose","Y",2012-10-31,"Y",2013-05-06,NA
"CDISCPILOT01","01-713-1141","1141","713",79,">50",3,"M","WHITE","Xanomeline High Dose","Xanomeline High Dose","Y",2013-05-31,"Y",2013-08-06,NA
"CDISCPILOT01","01-713-1179","1179","713",64,">50",3,"F","WHITE","Placebo","Placebo","Y",2013-08-09,"Y",2014-02-05,NA
"CDISCPILOT01","01-713-1209","1209","713",77,">50",3,"F","WHITE","Xanomeline High Dose","Xanomeline High Dose","Y",2013-05-27,"Y",2013-11-22,NA
"CDISCPILOT01","01-713-1256","1256","713",71,">50",3,"M","WHITE","Placebo","Placebo","Y",2012-09-19,"Y",2013-03-25,NA
"CDISCPILOT01","01-713-1269","1269","713",73,">50",3,"M","WHITE","Placebo","Placebo","Y",2014-01-27,"N",2014-07-28,NA
"CDISCPILOT01","01-713-1448","1448","713",71,">50",3,"F","WHITE","Xanomeline Low Dose","Xanomeline Low Dose","Y",2014-01-19,"Y",2014-07-27,NA
"CDISCPILOT01","01-714-1035","1035","714",88,">50",3,"F","WHITE","Placebo","Placebo","Y",2014-04-17,"Y",2014-10-16,"Y"
"CDISCPILOT01","01-714-1068","1068","714",79,">50",3,"F","WHITE","Xanomeline Low Dose","Xanomeline Low Dose","Y",2013-08-08,"Y",2013-10-16,NA
"CDISCPILOT01","01-714-1195","1195","714",75,">50",3,"M","WHITE","Xanomeline Low Dose","Xanomeline Low Dose","Y",2013-04-26,"Y",2013-10-23,NA
"CDISCPILOT01","01-714-1288","1288","714",77,">50",3,"M","BLACK OR AFRICAN AMERICAN","Xanomeline High Dose","Xanomeline High Dose","Y",2013-12-04,"Y",2014-06-17,"Y"
"CDISCPILOT01","01-714-1375","1375","714",78,">50",3,"F","WHITE","Placebo","Placebo","Y",2013-02-26,"Y",2013-09-07,NA
"CDISCPILOT01","01-714-1425","1425","714",81,">50",3,"M","WHITE","Xanomeline High Dose","Xanomeline Low Dose","Y",2013-08-15,"Y",2013-08-22,"Y"
"CDISCPILOT01","01-715-1085","1085","715",77,">50",3,"F","WHITE","Xanomeline Low Dose","Xanomeline Low Dose","Y",2013-02-16,"Y",2013-08-18,NA
"CDISCPILOT01","01-715-1107","1107","715",65,">50",3,"M","WHITE","Xanomeline Low Dose","Xanomeline Low Dose","Y",2013-02-26,"Y",2013-08-14,"Y"
"CDISCPILOT01","01-715-1134","1134","715",50,"18 - 50",2,"F","WHITE","Screen Failure","Screen Failure","Y",NA,"N",2014-04-17,NA
"CDISCPILOT01","01-715-1155","1155","715",59,">50",3,"F","WHITE","Placebo","Placebo","Y",2013-12-13,"Y",2014-04-26,NA
"CDISCPILOT01","01-715-1207","1207","715",78,">50",3,"F","WHITE","Placebo","Placebo","Y",2012-11-18,"Y",2013-06-01,NA
"CDISCPILOT01","01-715-1225","1225","715",77,">50",3,"F","WHITE","Screen Failure","Screen Failure","Y",NA,"N",2013-01-22,NA
"CDISCPILOT01","01-715-1319","1319","715",65,">50",3,"M","WHITE","Xanomeline High Dose","Xanomeline High Dose","Y",2013-02-17,"N",2013-03-18,"Y"
"CDISCPILOT01","01-715-1321","1321","715",75,">50",3,"F","WHITE","Xanomeline High Dose","Xanomeline High Dose","Y",2014-02-11,"Y",2014-04-22,"Y"
"CDISCPILOT01","01-715-1333","1333","715",75,">50",3,"F","WHITE","Screen Failure","Screen Failure","Y",NA,"N",2013-06-03,NA
"CDISCPILOT01","01-715-1397","1397","715",76,">50",3,"F","WHITE","Placebo","Placebo","Y",2013-04-03,"Y",2013-10-03,NA
"CDISCPILOT01","01-715-1405","1405","715",69,">50",3,"M","WHITE","Xanomeline Low Dose","Xanomeline Low Dose","Y",2013-07-06,"Y",2014-01-11,"Y"
"CDISCPILOT01","01-715-1407","1407","715",73,">50",3,"F","WHITE","Screen Failure","Screen Failure","Y",NA,"N",2012-10-24,NA
"CDISCPILOT01","01-716-1003","1003","716",79,">50",3,"M","WHITE","Screen Failure","Screen Failure","Y",NA,"N",2014-03-29,NA
"CDISCPILOT01","01-716-1024","1024","716",87,">50",3,"F","WHITE","Placebo","Placebo","Y",2012-07-09,"Y",2013-01-20,NA
"CDISCPILOT01","01-716-1026","1026","716",73,">50",3,"F","WHITE","Placebo","Placebo","Y",2014-04-02,"Y",2014-10-16,NA
"CDISCPILOT01","01-716-1030","1030","716",83,">50",3,"F","WHITE","Xanomeline High Dose","Xanomeline Low Dose","Y",2013-12-28,"Y",2014-01-10,NA
"CDISCPILOT01","01-716-1044","1044","716",74,">50",3,"M","WHITE","Placebo","Placebo","Y",2013-04-27,"Y",2013-11-03,NA
"CDISCPILOT01","01-716-1061","1061","716",81,">50",3,"M","WHITE","Screen Failure","Screen Failure","Y",NA,"N",2014-02-14,NA
"CDISCPILOT01","01-716-1063","1063","716",80,">50",3,"M","WHITE","Xanomeline Low Dose","Xanomeline Low Dose","Y",2013-05-09,"Y",2013-11-17,NA
"CDISCPILOT01","01-716-1071","1071","716",78,">50",3,"F","WHITE","Xanomeline High Dose","Xanomeline High Dose","Y",2013-06-08,"Y",2013-12-16,NA
"CDISCPILOT01","01-716-1094","1094","716",82,">50",3,"M","WHITE","Xanomeline Low Dose","Xanomeline Low Dose","Y",2012-12-19,"Y",2013-06-22,"Y"
"CDISCPILOT01","01-716-1103","1103","716",79,">50",3,"M","WHITE","Xanomeline Low Dose","Xanomeline Low Dose","Y",2014-03-20,"Y",2014-09-20,NA
"CDISCPILOT01","01-716-1108","1108","716",86,">50",3,"F","WHITE","Placebo","Placebo","Y",2013-02-12,"Y",2013-08-10,NA
"CDISCPILOT01","01-716-1151","1151","716",83,">50",3,"F","WHITE","Xanomeline Low Dose","Xanomeline Low Dose","Y",2013-02-01,"Y",2013-08-13,NA
"CDISCPILOT01","01-716-1157","1157","716",85,">50",3,"M","WHITE","Xanomeline Low Dose","Xanomeline Low Dose","Y",2013-10-02,"Y",2014-04-05,NA
"CDISCPILOT01","01-716-1160","1160","716",83,">50",3,"F","WHITE","Placebo","Placebo","Y",2013-04-05,"Y",2013-10-11,NA
"CDISCPILOT01","01-716-1167","1167","716",68,">50",3,"M","WHITE","Xanomeline Low Dose","Xanomeline Low Dose","Y",2012-10-08,"Y",2013-04-13,NA
"CDISCPILOT01","01-716-1177","1177","716",72,">50",3,"M","WHITE","Placebo","Placebo","Y",2014-09-02,"Y",2015-03-05,NA
"CDISCPILOT01","01-716-1189","1189","716",81,">50",3,"M","WHITE","Xanomeline High Dose","Xanomeline High Dose","Y",2012-10-09,"N",2013-04-08,NA
"CDISCPILOT01","01-716-1229","1229","716",73,">50",3,"F","WHITE","Xanomeline High Dose","Xanomeline High Dose","Y",2013-02-20,"Y",2013-04-02,NA
"CDISCPILOT01","01-716-1244","1244","716",72,">50",3,"F","WHITE","Screen Failure","Screen Failure","Y",NA,"N",2013-08-15,NA
"CDISCPILOT01","01-716-1298","1298","716",76,">50",3,"F","WHITE","Xanomeline Low Dose","Xanomeline Low Dose","Y",2013-04-08,"Y",2013-10-07,NA
"CDISCPILOT01","01-716-1305","1305","716",73,">50",3,"F","WHITE","Screen Failure","Screen Failure","Y",NA,"N",2013-08-06,NA
"CDISCPILOT01","01-716-1308","1308","716",76,">50",3,"F","WHITE","Placebo","Placebo","Y",2013-08-28,"Y",2013-10-07,NA
"CDISCPILOT01","01-716-1311","1311","716",78,">50",3,"M","WHITE","Xanomeline Low Dose","Xanomeline Low Dose","Y",2014-05-14,"Y",2014-11-15,NA
"CDISCPILOT01","01-716-1331","1331","716",59,">50",3,"F","WHITE","Screen Failure","Screen Failure","Y",NA,"N",2013-11-25,NA
"CDISCPILOT01","01-716-1364","1364","716",84,">50",3,"F","WHITE","Xanomeline High Dose","Xanomeline High Dose","Y",2013-07-04,"Y",2014-01-09,NA
"CDISCPILOT01","01-716-1373","1373","716",74,">50",3,"M","WHITE","Xanomeline High Dose","Xanomeline High Dose","Y",2012-12-14,"N",2013-02-28,NA
"CDISCPILOT01","01-716-1418","1418","716",80,">50",3,"F","WHITE","Xanomeline High Dose","Xanomeline High Dose","Y",2013-05-05,"Y",2013-11-20,NA
"CDISCPILOT01","01-716-1441","1441","716",85,">50",3,"M","WHITE","Placebo","Placebo","Y",2014-01-22,"Y",2014-07-22,NA
"CDISCPILOT01","01-716-1447","1447","716",72,">50",3,"F","WHITE","Xanomeline High Dose","Xanomeline High Dose","Y",2013-12-16,"Y",2014-06-17,NA
"CDISCPILOT01","01-717-1004","1004","717",80,">50",3,"F","WHITE","Xanomeline Low Dose","Xanomeline Low Dose","Y",2014-01-14,"Y",2014-07-16,"Y"
"CDISCPILOT01","01-717-1109","1109","717",84,">50",3,"M","WHITE","Xanomeline High Dose","Xanomeline High Dose","Y",2014-01-27,"Y",2014-07-28,"Y"
"CDISCPILOT01","01-717-1174","1174","717",73,">50",3,"M","WHITE","Xanomeline High Dose","Xanomeline High Dose","Y",2013-01-22,"Y",2013-07-24,NA
"CDISCPILOT01","01-717-1201","1201","717",85,">50",3,"F","WHITE","Placebo","Placebo","Y",2013-12-19,"N",2014-02-21,NA
"CDISCPILOT01","01-717-1344","1344","717",64,">50",3,"F","WHITE","Placebo","Placebo","Y",2014-01-11,"Y",2014-03-14,NA
"CDISCPILOT01","01-717-1357","1357","717",77,">50",3,"M","WHITE","Xanomeline High Dose","Xanomeline High Dose","Y",2013-05-01,"Y",2013-10-20,NA
"CDISCPILOT01","01-717-1446","1446","717",75,">50",3,"F","WHITE","Xanomeline Low Dose","Xanomeline Low Dose","Y",2013-09-01,"Y",2014-03-17,"Y"
"CDISCPILOT01","01-718-1066","1066","718",79,">50",3,"F","WHITE","Xanomeline Low Dose","Xanomeline Low Dose","Y",2013-07-07,"Y",2013-07-30,NA
"CDISCPILOT01","01-718-1079","1079","718",67,">50",3,"F","WHITE","Xanomeline Low Dose","Xanomeline Low Dose","Y",2012-09-19,"Y",2013-03-05,NA
"CDISCPILOT01","01-718-1101","1101","718",82,">50",3,"M","BLACK OR AFRICAN AMERICAN","Xanomeline High Dose","Xanomeline High Dose","Y",2013-02-17,"Y",2013-08-02,"Y"
"CDISCPILOT01","01-718-1139","1139","718",77,">50",3,"M","WHITE","Placebo","Placebo","Y",2013-05-19,"Y",2013-11-17,NA
"CDISCPILOT01","01-718-1150","1150","718",73,">50",3,"F","WHITE","Placebo","Placebo","Y",2013-01-19,"Y",2013-07-31,"Y"
"CDISCPILOT01","01-718-1170","1170","718",80,">50",3,"F","WHITE","Xanomeline Low Dose","Xanomeline Low Dose","Y",2013-09-16,"Y",2014-03-15,NA
"CDISCPILOT01","01-718-1172","1172","718",74,">50",3,"M","WHITE","Placebo","Placebo","Y",2013-09-21,"Y",2014-03-21,NA
"CDISCPILOT01","01-718-1250","1250","718",82,">50",3,"F","WHITE","Xanomeline Low Dose","Xanomeline Low Dose","Y",2013-09-21,"Y",2014-03-08,NA
"CDISCPILOT01","01-718-1254","1254","718",78,">50",3,"M","WHITE","Xanomeline Low Dose","Xanomeline Low Dose","Y",2013-07-10,"Y",2014-01-09,NA
"CDISCPILOT01","01-718-1328","1328","718",86,">50",3,"M","WHITE","Xanomeline High Dose","Xanomeline High Dose","Y",2013-02-01,"Y",2013-07-24,NA
"CDISCPILOT01","01-718-1355","1355","718",79,">50",3,"M","WHITE","Placebo","Placebo","Y",2013-02-28,"Y",2013-08-29,NA
"CDISCPILOT01","01-718-1371","1371","718",69,">50",3,"F","WHITE","Xanomeline High Dose","Xanomeline High Dose","Y",2013-04-26,"Y",2013-08-08,NA
"CDISCPILOT01","01-718-1427","1427","718",74,">50",3,"F","BLACK OR AFRICAN AMERICAN","Xanomeline High Dose","Xanomeline High Dose","Y",2012-12-17,"Y",2013-06-03,NA
